ax,ay,az,gx,gy,gz,mx,my,mz
0.17,-0.00,0.99,2.93,0.31,2.38,50.00,11.00,14.00
0.15,0.02,1.01,-2.93,-1.71,0.24,52.00,9.00,14.00
0.17,0.01,1.00,2.14,-0.12,-2.44,53.00,11.00,18.00
0.16,0.01,0.99,0.00,-0.24,-1.04,53.00,13.00,13.00
0.16,0.02,0.96,2.38,-3.54,-0.31,54.00,14.00,16.00
0.04,-0.14,0.70,-104.25,-90.70,111.08,50.00,24.00,7.00
0.00,-0.25,1.23,125.49,1.77,168.03,16.00,56.00,-17.00
0.03,-0.25,1.34,41.87,66.83,168.88,-31.00,10.00,-41.00
0.24,-0.03,1.46,40.83,211.55,54.02,-6.00,-45.00,-30.00
0.25,-0.10,0.68,93.69,326.90,-93.08,-6.00,-50.00,-17.00
0.52,-0.81,-0.02,48.16,184.94,-99.98,-8.00,-52.00,-21.00
0.41,-0.81,-0.26,-12.51,100.65,-73.67,-8.00,-56.00,-12.00
0.46,-0.94,-0.08,-97.96,69.58,-41.56,19.00,-42.00,8.00
0.45,-1.08,-0.02,-108.70,57.31,-14.53,27.00,-39.00,5.00
0.53,-1.07,0.16,-199.58,15.87,79.10,34.00,-37.00,5.00
0.63,-0.97,0.34,-145.45,-21.24,143.80,48.00,-42.00,14.00
0.62,-0.33,0.54,-120.12,-84.72,189.76,65.00,-30.00,10.00
0.38,0.18,0.77,-90.64,-121.83,181.34,65.00,-21.00,8.00
0.02,0.40,0.73,-4.64,-103.70,152.65,60.00,-10.00,0.00
-0.22,0.30,0.85,58.96,-68.30,119.81,58.00,-4.00,-8.00
-0.35,0.11,1.07,72.81,-3.36,132.26,41.00,101.00,19.00
-0.39,-0.08,1.20,108.76,50.29,157.71,-108.00,11.00,9.00
-0.26,-0.19,1.13,50.17,88.38,129.27,-14.00,-45.00,-39.00
0.06,-0.20,1.20,-15.93,149.35,80.93,2.00,-52.00,-27.00
0.34,-0.10,1.08,61.58,202.70,-37.72,0.00,-50.00,-32.00
0.44,-0.32,0.43,-62.32,204.65,-92.53,0.00,-49.00,-25.00
0.58,-0.66,0.15,-47.49,124.51,-93.44,0.00,-48.00,-19.00
0.62,-0.65,0.16,-31.86,69.52,-63.72,7.00,-46.00,-11.00
0.61,-0.81,0.07,-55.91,51.15,-48.46,10.00,-43.00,-1.00
0.59,-0.85,0.09,-56.09,50.29,-44.49,19.00,-38.00,-2.00
0.58,-0.95,0.08,-40.28,42.79,-33.14,22.00,-35.00,5.00
0.62,-1.04,0.09,-37.05,16.48,7.02,30.00,-34.00,5.00
0.67,-1.01,0.15,-86.67,-20.26,63.72,32.00,-37.00,8.00
0.73,-0.86,0.32,-103.88,-68.85,147.09,38.00,-36.00,7.00
0.61,-0.18,0.58,-40.47,-121.70,162.96,37.00,-33.00,11.00
0.50,-0.01,0.72,-4.52,-76.11,71.90,35.00,-25.00,11.00
0.42,-0.00,0.87,-3.60,-56.70,46.39,32.00,-24.00,6.00
0.33,0.02,0.94,-11.96,-39.25,41.20,31.00,-20.00,0.00
0.28,0.03,0.93,8.24,-31.49,34.79,29.00,-22.00,4.00
0.23,0.03,0.98,32.23,-21.61,31.01,23.00,-19.00,14.00
0.18,0.00,1.02,20.87,-12.63,27.34,20.00,-18.00,9.00
0.15,-0.03,0.99,18.55,-12.82,24.11,12.00,-21.00,20.00
0.12,-0.07,1.01,27.83,-10.74,19.59,4.00,-26.00,26.00
0.12,-0.13,1.00,18.31,-13.06,22.77,-21.00,-46.00,26.00
0.10,-0.18,0.95,23.74,-7.02,20.26,-31.00,-61.00,15.00
0.11,-0.21,1.03,27.89,-8.30,24.96,-31.00,-68.00,-7.00
0.13,-0.29,1.03,17.58,9.64,30.33,-20.00,-65.00,-21.00
0.22,-0.28,1.10,19.35,49.44,35.16,-1.00,-50.00,-28.00
0.28,-0.21,0.97,13.37,71.78,26.61,2.00,-46.00,-26.00
0.45,-0.23,0.91,38.88,78.12,13.18,2.00,-45.00,-26.00
0.60,-0.29,0.83,16.78,89.23,6.29,0.00,-49.00,-24.00
0.70,-0.31,0.69,8.30,102.11,-14.53,2.00,-53.00,-27.00
0.78,-0.36,0.44,-1.65,103.03,-32.17,-1.00,-53.00,-25.00
0.80,-0.48,0.14,-1.65,78.12,-30.03,0.00,-51.00,-27.00
0.82,-0.54,0.04,-7.51,58.78,-21.85,1.00,-52.00,-25.00
0.83,-0.56,-0.06,-7.51,32.84,-3.42,0.00,-57.00,-25.00
0.85,-0.55,-0.06,4.58,25.09,-2.44,-1.00,-56.00,-25.00
0.84,-0.56,-0.11,-14.71,22.40,-1.71,-2.00,-57.00,-24.00
0.83,-0.54,-0.10,-8.36,25.33,-1.22,-3.00,-58.00,-18.00
0.81,-0.59,-0.19,-15.81,26.31,-2.56,0.00,-56.00,-15.00
0.81,-0.57,-0.16,-12.39,20.57,-0.31,1.00,-55.00,-14.00
0.80,-0.58,-0.18,-12.39,24.78,0.24,4.00,-55.00,-11.00
0.78,-0.57,-0.19,-27.77,23.38,-3.17,5.00,-54.00,-7.00
0.76,-0.59,-0.25,-24.17,17.21,-3.05,10.00,-52.00,-7.00
0.76,-0.62,-0.24,-24.35,14.65,-2.44,10.00,-50.00,-5.00
0.75,-0.63,-0.22,-20.75,9.09,-1.34,12.00,-48.00,-10.00
0.74,-0.65,-0.21,-31.56,6.71,-0.37,14.00,-49.00,-1.00
0.74,-0.69,-0.21,-33.14,7.45,-3.11,16.00,-47.00,-5.00
0.77,-0.71,-0.13,-70.98,-1.40,7.02,18.00,-48.00,-5.00
0.79,-0.76,-0.06,-89.17,-7.39,21.30,22.00,-49.00,2.00
0.83,-0.72,0.03,-62.26,-24.48,53.22,31.00,-51.00,8.00
0.87,-0.53,0.19,-37.66,-46.33,76.84,34.00,-50.00,14.00
0.83,-0.31,0.28,-18.31,-52.86,74.34,38.00,-48.00,12.00
0.82,-0.18,0.43,-13.92,-69.15,76.05,38.00,-46.00,14.00
0.77,-0.01,0.68,-21.30,-65.61,71.41,38.00,-40.00,11.00
0.66,0.07,0.72,7.51,-59.81,62.38,39.00,-36.00,15.00
0.54,0.16,0.81,15.56,-52.00,52.12,36.00,-34.00,8.00
0.45,0.19,0.87,2.81,-43.27,46.63,37.00,-31.00,10.00
0.38,0.21,0.91,26.92,-27.10,34.12,31.00,-26.00,9.00
0.34,0.14,0.89,21.00,-19.59,28.38,27.00,-28.00,10.00
0.30,0.17,0.96,3.42,-14.28,20.87,25.00,-31.00,16.00
0.27,0.18,0.94,7.81,-5.80,18.01,24.00,-28.00,12.00
0.25,0.16,0.92,8.30,-8.36,18.55,20.00,-36.00,14.00
0.24,0.13,0.95,17.94,-8.00,17.15,13.00,-39.00,13.00
0.23,0.10,1.03,12.21,-2.32,17.70,11.00,-43.00,19.00
0.21,0.10,1.01,14.10,3.36,19.17,6.00,-48.00,7.00
0.23,0.04,1.00,31.68,17.64,18.68,6.00,-49.00,-3.00
0.30,-0.02,1.02,33.69,30.21,22.89,5.00,-48.00,-10.00
0.34,-0.08,0.99,53.59,43.76,23.80,4.00,-48.00,-15.00
0.44,-0.11,1.00,50.96,56.58,20.02,4.00,-43.00,-15.00
0.55,-0.15,0.87,50.72,93.02,10.86,2.00,-52.00,-21.00
0.71,-0.24,0.68,18.13,94.85,5.80,2.00,-57.00,-22.00
0.80,-0.25,0.55,-3.54,94.73,0.06,0.00,-56.00,-28.00
0.87,-0.27,0.35,11.35,89.54,-17.70,2.00,-61.00,-25.00
0.91,-0.27,0.20,14.10,95.21,-18.68,1.00,-59.00,-34.00
0.90,-0.32,-0.06,-107.60,72.57,-10.74,1.00,-64.00,-36.00
0.89,-0.41,-0.21,-14.59,54.02,-19.47,0.00,-61.00,-26.00
0.88,-0.42,-0.22,-12.63,45.17,-12.82,1.00,-64.00,-24.00
0.82,-0.45,-0.34,-40.95,39.98,-10.01,1.00,-63.00,-15.00
0.81,-0.55,-0.38,-43.21,34.91,-2.69,5.00,-61.00,-14.00
0.80,-0.56,-0.37,-36.13,29.24,6.96,6.00,-63.00,-9.00
0.78,-0.50,-0.33,-28.20,27.40,5.13,10.00,-63.00,-5.00
0.75,-0.55,-0.40,-25.15,23.07,6.10,12.00,-60.00,-7.00
0.77,-0.56,-0.36,-34.73,9.70,5.55,15.00,-58.00,-8.00
0.79,-0.59,-0.31,-42.18,-0.55,7.02,15.00,-60.00,-3.00
0.80,-0.64,-0.31,-32.35,-8.06,14.47,20.00,-62.00,-7.00
0.83,-0.60,-0.22,-44.13,-10.44,21.85,21.00,-61.00,-3.00
0.85,-0.60,-0.23,-129.15,-27.40,39.25,24.00,-61.00,3.00
0.88,-0.68,-0.18,-206.48,-113.53,72.94,34.00,-61.00,6.00
0.95,-0.23,0.54,-145.20,-168.27,135.80,64.00,-41.00,17.00
0.64,0.14,-0.07,-83.07,-207.28,138.06,72.00,-23.00,1.00
0.13,0.67,1.25,24.96,-129.27,172.24,71.00,-5.00,-14.00
-1.14,0.15,0.99,56.03,141.78,61.04,63.00,-3.00,-23.00
-0.49,-0.00,0.79,59.27,94.79,-19.84,56.00,-12.00,-3.00
0.23,0.18,0.87,52.37,23.80,-51.09,57.00,-12.00,4.00
1.05,0.19,0.88,53.34,-7.63,-57.74,51.00,-10.00,5.00
1.27,-0.11,0.90,-22.77,14.10,6.41,51.00,-10.00,0.00
0.75,0.38,0.70,-20.94,16.05,41.02,58.00,-15.00,6.00
-0.38,0.04,0.69,-16.66,-33.75,-3.11,54.00,-17.00,1.00
-0.68,-0.06,1.63,-26.67,-24.78,13.31,52.00,-13.00,0.00
-0.27,0.03,0.80,2.08,-5.68,-17.64,53.00,-14.00,0.00
0.97,0.06,1.21,68.48,1.59,-58.59,57.00,-9.00,0.00
1.43,-0.10,0.93,-32.23,21.30,-9.64,57.00,-9.00,3.00
0.60,0.31,0.62,-21.55,-31.31,92.90,58.00,-12.00,5.00
-0.94,0.05,0.85,-10.93,-70.74,6.77,56.00,-12.00,0.00
-0.94,0.39,0.76,18.92,26.00,-9.22,52.00,-12.00,-9.00
0.25,0.33,0.65,35.71,-20.57,-51.88,57.00,-8.00,-1.00
1.52,-0.03,1.37,32.90,4.82,-50.42,56.00,-3.00,-4.00
1.03,-0.35,0.94,-43.09,29.54,75.87,60.00,-4.00,-5.00
-0.72,0.15,0.42,3.11,-30.58,31.56,54.00,-12.00,-5.00
-1.02,0.02,1.32,-21.30,10.25,-5.25,52.00,-10.00,-10.00
-0.07,-0.01,0.81,17.82,16.30,-25.88,59.00,-13.00,0.00
1.22,0.13,1.12,79.35,-27.28,-54.50,64.00,-6.00,0.00
1.20,-0.33,0.96,-35.64,25.51,35.34,61.00,-7.00,-5.00
-0.18,0.38,0.46,-4.64,10.99,37.90,61.00,-12.00,-5.00
-1.12,-0.23,1.22,41.32,-2.50,23.80,56.00,-12.00,-8.00
-0.51,-0.04,0.78,-8.36,5.62,-21.85,59.00,-10.00,-10.00
0.76,0.15,1.25,65.55,-62.74,-78.25,66.00,-9.00,-4.00
1.32,-0.16,1.68,-18.62,44.31,17.40,68.00,-1.00,-13.00
0.25,0.52,0.53,-35.46,39.37,82.52,68.00,-8.00,-5.00
-1.32,-0.03,0.96,26.12,-51.76,36.99,59.00,-10.00,-7.00
-0.89,0.01,0.74,-40.47,-2.99,-34.30,58.00,-8.00,-12.00
0.28,0.26,0.95,57.86,-47.12,-75.26,68.00,-3.00,-11.00
1.65,-0.18,2.03,-8.00,7.75,6.35,64.00,-4.00,-15.00
0.57,0.17,1.07,-32.47,67.63,110.66,65.00,-5.00,-13.00
-0.95,-0.25,0.54,20.26,-35.16,34.06,58.00,-8.00,-9.00
-1.03,0.08,1.01,-7.69,13.31,-14.89,55.00,-10.00,-12.00
-0.22,-0.05,0.66,46.14,2.81,-43.40,60.00,-10.00,-10.00
1.44,0.12,1.69,53.71,-52.67,-78.80,69.00,-5.00,-17.00
0.97,-0.00,0.84,-35.22,108.64,52.19,69.00,-2.00,-7.00
-0.15,0.54,0.09,-7.26,-1.89,36.32,64.00,-12.00,-5.00
-1.34,-0.25,1.37,59.39,-62.56,7.81,53.00,-13.00,-14.00
-0.66,-0.23,1.07,-58.90,18.55,-16.72,54.00,-12.00,-10.00
0.65,0.15,0.93,86.73,-30.88,-81.12,70.00,-2.00,-9.00
1.67,-0.22,2.02,-29.72,18.68,54.44,67.00,-4.00,-15.00
0.50,0.31,0.76,-15.87,88.62,102.36,70.00,-5.00,-3.00
-0.95,-0.28,0.37,38.39,-51.09,29.48,59.00,-15.00,-5.00
-0.93,0.00,0.99,-60.36,-19.35,-16.54,56.00,-11.00,-10.00
-0.33,0.16,0.74,27.83,-24.35,-43.76,61.00,-11.00,-17.00
1.50,0.18,2.05,134.83,27.89,-96.80,67.00,-2.00,-17.00
0.59,-0.07,1.21,38.51,95.03,153.14,64.00,-1.00,-2.00
0.02,-0.18,1.45,34.18,127.08,91.86,48.00,-19.00,10.00
-0.07,0.88,0.96,-654.30,-304.26,-36.93,42.00,-31.00,9.00
-0.31,0.88,-0.31,156.37,-205.32,118.41,71.00,-18.00,4.00
-0.54,1.27,1.71,-10.19,101.56,-21.67,55.00,-4.00,-8.00
0.29,-0.12,1.65,43.88,178.47,77.21,56.00,-6.00,-9.00
0.65,0.69,0.26,-181.09,95.09,-53.04,50.00,-20.00,8.00
0.56,0.71,1.41,54.26,-40.34,16.85,61.00,-22.00,14.00
0.37,-0.85,-0.23,229.13,-29.17,-27.89,60.00,-20.00,9.00
0.04,0.05,0.24,30.03,-50.90,-12.70,53.00,-19.00,7.00
0.40,-0.28,0.71,37.23,48.34,46.26,58.00,-13.00,8.00
0.48,-0.46,0.97,277.16,72.63,147.34,53.00,-18.00,17.00
0.52,0.63,1.71,200.74,355.96,133.06,5.00,-53.00,-9.00
0.36,-0.83,-0.35,-371.46,-371.89,85.08,20.00,-41.00,4.00
0.52,-1.86,1.38,-338.75,-107.48,-126.95,50.00,-14.00,2.00
-0.52,1.53,1.42,-202.51,-237.12,-189.09,54.00,-10.00,-1.00
0.28,-0.01,1.19,-120.79,-215.03,-95.89,60.00,0.00,-13.00
-0.32,0.27,0.97,126.83,-107.06,72.57,54.00,7.00,-10.00
-0.72,0.01,2.59,-277.16,18.92,-343.57,55.00,20.00,-12.00
-0.69,1.79,0.48,85.02,149.72,320.68,66.00,-2.00,-9.00
-0.63,1.79,0.20,162.78,159.73,58.04,47.00,-12.00,5.00
0.42,0.29,1.20,233.03,163.88,230.29,44.00,-17.00,6.00
0.57,1.95,2.17,161.80,14.34,-88.93,37.00,-21.00,15.00
1.34,-0.03,1.73,-319.82,13.06,-167.42,50.00,-15.00,6.00
-1.31,-1.37,1.47,262.27,102.84,148.86,57.00,-11.00,-1.00
0.14,-1.31,0.27,-79.53,-61.40,85.88,54.00,-19.00,1.00
0.26,0.27,1.27,57.68,-37.96,125.06,64.00,-13.00,0.00
0.64,0.02,1.45,-2.69,-85.69,101.01,64.00,-10.00,0.00
0.82,-0.18,1.62,-15.44,-64.09,91.37,62.00,-6.00,-4.00
0.49,0.35,1.63,40.34,-58.59,135.07,64.00,-6.00,-2.00
0.07,0.73,1.21,-99.18,-39.86,118.96,65.00,-3.00,0.00
-0.09,0.41,0.70,-202.51,-96.92,101.07,64.00,-8.00,0.00
-0.37,1.32,0.93,-180.91,-69.03,169.74,71.00,-2.00,-22.00
-0.25,0.42,1.40,31.62,12.21,185.61,72.00,-4.00,-24.00
0.25,-0.59,0.97,136.05,39.49,52.67,69.00,-6.00,-15.00
0.06,-0.18,1.44,-69.89,-325.50,-6.10,66.00,-9.00,-2.00
0.29,-1.68,2.46,-62.93,-207.89,39.12,68.00,-1.00,-26.00
0.45,-1.53,1.51,-138.24,-102.42,77.88,69.00,0.00,-25.00
0.45,-1.40,1.34,-105.04,-34.36,180.36,71.00,0.00,-13.00
-0.09,-1.05,-0.45,-67.02,-74.95,18.37,66.00,-3.00,-6.00
0.01,-0.81,1.04,-97.60,-110.05,133.67,65.00,-6.00,-13.00
-0.19,-1.49,0.42,-37.23,-69.52,147.95,65.00,-5.00,-10.00
-0.16,-0.99,0.77,37.96,-25.76,104.31,63.00,-7.00,-14.00
-0.09,-1.06,0.16,-43.82,6.16,-0.79,59.00,-9.00,-9.00
0.11,-0.66,0.32,90.58,-6.41,-50.17,70.00,-8.00,-6.00
0.26,0.20,0.29,-81.48,22.16,-78.12,67.00,-7.00,-3.00
0.90,0.69,2.19,-35.03,255.13,-101.01,62.00,-9.00,0.00
0.78,-0.02,0.49,-178.34,224.79,-142.27,62.00,-35.00,17.00
0.89,-0.72,0.00,-40.16,-193.18,120.54,63.00,-56.00,17.00
0.45,0.66,2.34,-47.12,-233.40,4.39,66.00,-28.00,10.00
0.40,-0.38,1.05,10.01,-76.48,23.93,67.00,-17.00,6.00
0.40,-0.15,1.34,-38.51,-165.89,160.83,67.00,-8.00,-1.00
0.05,-0.74,1.10,48.22,-202.64,125.73,63.00,0.00,-10.00
0.17,0.76,2.56,14.53,-8.91,183.23,64.00,-3.00,-14.00
-0.08,0.22,1.62,27.53,-13.00,118.29,57.00,-6.00,-11.00
-0.31,0.53,1.21,77.15,-2.08,108.09,55.00,-5.00,-14.00
-0.17,0.03,1.79,-19.17,-35.77,122.56,56.00,-9.00,-17.00
0.11,-0.34,1.17,22.40,-36.25,77.09,58.00,-9.00,-12.00
0.19,-0.63,0.45,35.16,-45.23,-18.25,60.00,-11.00,-7.00
0.55,-0.70,0.67,-67.50,-93.93,49.07,70.00,-5.00,2.00
0.48,-0.78,1.25,0.37,-141.30,79.90,68.00,-4.00,-1.00
0.32,-0.74,0.77,-139.40,-155.15,-12.45,61.00,-3.00,-3.00
0.65,-1.63,0.32,-98.63,-72.39,1.65,60.00,-1.00,-7.00
-0.03,-1.76,-1.06,-321.78,-159.67,33.14,72.00,0.00,-7.00
-0.25,-2.33,-2.24,-235.11,-186.04,-20.32,60.00,-8.00,-2.00
-0.11,-2.39,-0.62,-366.94,-147.03,-60.30,50.00,-5.00,-1.00
-0.44,-2.63,-0.95,-369.38,-120.48,-15.75,50.00,-2.00,-11.00
-0.37,-2.10,-0.78,-76.60,-62.01,31.01,61.00,0.00,-18.00
-0.52,-0.92,0.25,-11.47,49.26,-100.04,56.00,0.00,-17.00
-0.17,-0.49,0.75,-231.93,65.12,-64.09,53.00,-7.00,-15.00
-0.03,-0.38,0.65,-118.16,51.45,-87.83,60.00,-7.00,-8.00
-0.11,0.58,1.28,37.35,97.17,-135.19,60.00,-3.00,0.00
0.25,1.00,1.26,114.38,60.49,-36.44,55.00,-3.00,-8.00
0.58,0.90,2.51,7.20,25.27,13.12,58.00,-6.00,-11.00
0.41,2.16,2.01,44.07,115.72,-39.61,63.00,-2.00,-14.00
0.34,2.11,1.65,21.06,55.85,-2.62,67.00,2.00,-3.00
0.01,2.27,1.98,-41.32,-1.16,27.83,67.00,-6.00,-10.00
-0.32,2.26,1.17,-43.40,-7.57,-26.25,61.00,-10.00,-12.00
-0.44,2.18,0.92,116.15,17.82,15.99,65.00,26.00,-23.00
-0.63,1.68,1.11,102.66,6.90,-1.16,76.00,79.00,-58.00
-0.35,1.23,1.33,84.96,31.92,1.83,56.00,0.00,-28.00
0.14,0.55,1.20,-1.77,19.04,92.90,60.00,-7.00,-15.00
0.33,0.00,1.54,88.44,-13.24,63.23,67.00,-5.00,-10.00
0.31,-0.19,1.06,65.73,-47.79,16.78,68.00,-4.00,-12.00
0.40,-1.14,-0.17,-34.30,-133.42,-87.10,60.00,-2.00,-6.00
0.52,-1.66,-0.11,-166.63,-115.78,-40.47,58.00,-4.00,-16.00
0.60,-2.12,-0.24,-331.54,-58.47,97.72,72.00,-4.00,-14.00
0.08,-2.32,-0.69,-264.59,-105.65,79.65,73.00,-10.00,-8.00
-0.25,-1.90,-0.41,-134.64,-86.36,114.62,63.00,-8.00,-11.00
-0.44,-1.48,-0.82,-70.19,-12.70,-7.26,59.00,0.00,-19.00
-0.29,0.59,0.83,-132.93,62.26,-29.42,60.00,2.00,-13.00
0.08,0.57,0.64,155.21,8.00,-21.61,63.00,-7.00,-17.00
0.16,0.29,0.83,-24.41,-11.35,3.30,62.00,-10.00,-8.00
0.33,-0.75,0.87,93.51,-79.04,60.61,66.00,-11.00,-13.00
0.17,-0.51,0.74,-34.36,-81.05,26.37,69.00,-11.00,-8.00
0.07,-0.40,0.42,13.92,-24.17,-23.93,69.00,-7.00,-10.00
-0.03,0.25,0.99,-37.41,12.82,-61.22,64.00,1.00,-16.00
-0.19,0.03,0.68,40.95,108.89,-64.76,61.00,-4.00,-18.00
-0.18,0.56,1.06,-0.12,91.37,-13.61,59.00,-2.00,-20.00
0.21,0.65,1.66,55.24,62.07,36.50,63.00,-1.00,-21.00
0.15,1.26,2.41,94.42,55.30,98.51,67.00,0.00,-15.00
-0.13,0.88,1.32,148.07,-44.37,123.17,71.00,2.00,-15.00
0.04,0.46,1.54,73.55,-56.09,106.99,68.00,-5.00,-22.00
-0.03,-0.15,1.30,-34.36,-25.39,116.82,64.00,-8.00,-20.00
-0.11,-0.06,1.47,52.43,-45.90,143.13,62.00,-6.00,-22.00
-0.13,-0.93,-0.01,-78.80,-85.94,54.81,56.00,-5.00,-14.00
-0.23,-1.06,-0.46,-8.24,-46.02,4.03,56.00,-8.00,-20.00
-0.31,-0.92,-0.22,-28.56,-5.13,-17.46,45.00,-10.00,-24.00
-0.21,-0.41,0.56,-114.99,46.08,-47.55,46.00,-11.00,-20.00
-0.15,0.05,0.97,-135.93,50.11,-42.54,57.00,-9.00,-12.00
0.01,1.25,2.07,-31.31,72.27,-32.65,58.00,-10.00,-19.00
0.07,1.66,1.89,76.05,46.75,-10.31,67.00,-10.00,-14.00
0.35,-0.07,0.90,132.32,-19.35,-3.85,72.00,-8.00,-8.00
-0.02,0.01,0.85,71.78,23.01,-39.00,63.00,0.00,-14.00
-0.03,0.44,1.00,61.46,145.20,-77.21,59.00,2.00,-20.00
0.10,0.73,1.65,156.25,179.93,32.41,60.00,0.00,-22.00
0.23,0.81,2.16,62.93,141.60,45.10,60.00,2.00,-11.00
0.30,0.87,2.07,104.06,89.60,108.09,84.00,17.00,2.00
0.33,0.12,1.20,-29.72,132.63,9.95,85.00,-7.00,19.00
0.46,0.24,0.71,-46.51,117.80,-5.55,65.00,-28.00,18.00
0.73,0.28,0.57,70.37,153.32,-35.10,53.00,-50.00,19.00
0.94,0.02,0.27,-27.40,33.02,-42.72,53.00,-56.00,18.00
0.76,0.18,-0.05,-2.75,-69.76,26.79,55.00,-53.00,17.00
0.44,0.32,0.14,-53.04,-189.39,5.49,59.00,-45.00,14.00
0.30,2.51,2.87,258.54,166.44,-65.73,58.00,-15.00,-2.00
-0.48,0.84,1.15,178.34,56.52,-23.93,53.00,-10.00,-12.00
-0.09,1.31,1.71,95.83,-4.09,8.42,54.00,-9.00,-14.00
0.05,0.85,2.10,127.56,-42.72,82.03,60.00,-11.00,-15.00
0.14,1.05,1.73,151.49,-27.83,49.07,73.00,-2.00,-34.00
0.06,0.69,2.52,118.29,-51.64,87.28,60.00,-2.00,-42.00
0.22,0.78,2.46,109.13,20.51,82.76,68.00,-2.00,-24.00
0.29,-0.06,1.96,8.24,-31.19,113.40,64.00,-1.00,-16.00
-0.09,0.44,0.94,-135.13,5.13,24.66,64.00,0.00,-16.00
-0.10,0.16,0.47,-37.90,-13.18,8.67,68.00,-1.00,-17.00
0.02,0.20,1.19,-67.14,9.95,16.36,69.00,0.00,-15.00
-0.10,1.27,1.18,12.27,-2.56,-27.40,66.00,1.00,-15.00
-0.16,0.90,1.10,21.06,48.77,-68.79,66.00,0.00,-13.00
-0.33,0.34,0.87,144.65,79.47,-84.47,64.00,1.00,-9.00
-0.05,0.70,1.78,1.89,64.33,-109.01,67.00,1.00,-18.00
-0.04,0.13,1.58,-12.21,55.97,-93.51,67.00,0.00,-15.00
-0.10,1.01,1.25,134.83,0.55,-16.91,69.00,3.00,-19.00
-0.26,0.75,1.79,176.94,36.99,239.75,56.00,4.00,-7.00
-0.29,1.92,1.28,94.60,51.82,-60.24,66.00,0.00,-17.00
-0.28,2.15,1.80,144.59,49.32,-2.44,68.00,-1.00,-22.00
-0.08,2.19,1.48,264.40,91.31,10.68,63.00,0.00,-9.00
-0.01,1.81,1.51,72.51,21.73,3.72,65.00,3.00,-11.00
-0.21,1.81,0.96,160.52,-13.73,3.66,69.00,4.00,-18.00
0.34,0.69,1.76,169.74,6.84,155.27,68.00,2.00,-13.00
-0.27,2.11,1.90,-8.42,14.47,71.11,54.00,-6.00,-6.00
-0.19,0.64,1.43,63.23,-11.47,70.56,53.00,-9.00,-16.00
-0.30,0.37,1.17,19.96,10.01,17.58,56.00,-10.00,-13.00
-0.08,0.40,0.85,-33.57,3.11,-15.62,54.00,-11.00,-10.00
0.06,0.36,1.03,-1.71,-15.87,-26.31,58.00,-10.00,-7.00
0.12,0.06,1.10,62.87,3.54,-39.31,64.00,-10.00,-5.00
0.20,-0.64,1.37,178.34,94.54,86.12,64.00,-8.00,-2.00
0.39,-0.03,1.99,103.64,-159.48,30.33,53.00,-7.00,0.00
0.22,-0.67,0.90,-108.15,-193.18,15.87,54.00,-1.00,-13.00
0.41,-0.90,2.23,-49.19,-79.83,214.23,66.00,-3.00,-23.00
0.47,0.96,1.90,85.08,22.46,180.66,64.00,-3.00,-22.00
0.23,0.36,1.61,32.10,26.00,157.96,66.00,-1.00,-12.00
-0.03,0.64,1.11,49.26,12.33,107.85,57.00,-11.00,-6.00
0.07,-0.08,0.47,-104.68,29.97,55.05,57.00,-13.00,-3.00
0.05,0.16,0.88,109.80,56.52,-16.30,54.00,-10.00,-3.00
0.07,-0.08,0.74,-44.37,-19.04,-19.17,50.00,-8.00,0.00
-0.29,-0.11,1.08,108.83,-190.86,189.94,47.00,-11.00,-16.00
-0.40,0.05,1.05,1.40,-96.31,210.88,35.00,-16.00,-26.00
-0.35,0.12,1.07,-47.97,18.62,70.01,71.00,-17.00,-21.00
-0.32,0.14,1.11,-18.55,24.48,39.61,104.00,114.00,22.00
-0.21,0.14,1.05,10.62,39.55,23.99,-152.00,61.00,60.00
-0.10,0.08,1.03,-13.00,47.18,21.48,-83.00,-32.00,10.00
0.00,0.07,1.05,25.82,72.51,40.41,-31.00,-52.00,-13.00
0.10,0.13,1.19,22.64,77.15,39.00,-9.00,-53.00,-19.00
0.35,-0.03,1.28,26.92,117.07,16.17,2.00,-56.00,-17.00
0.44,-0.07,0.83,10.38,173.22,-18.49,3.00,-60.00,-22.00
0.69,-0.11,0.60,-32.84,237.61,-38.09,2.00,-64.00,-24.00
0.77,-0.15,-0.08,6.41,181.09,-59.63,1.00,-62.00,-39.00
0.78,-0.43,-0.26,-53.16,117.37,-5.68,-1.00,-57.00,-31.00
0.67,-0.56,-0.55,-163.45,79.65,-0.61,2.00,-59.00,-25.00
0.65,-0.67,-0.36,-103.58,81.12,-13.31,7.00,-60.00,-13.00
0.64,-0.77,-0.37,-116.58,49.80,16.54,19.00,-59.00,-1.00
0.66,-0.97,-0.28,-119.45,35.71,9.70,26.00,-63.00,0.00
0.65,-0.98,-0.25,-73.85,35.77,15.38,31.00,-66.00,3.00
0.76,-0.96,-0.14,-63.35,21.61,74.46,41.00,-68.00,6.00
0.74,-0.84,-0.28,-47.18,-28.56,168.21,54.00,-71.00,12.00
0.64,-0.37,-0.30,-45.59,-182.86,189.76,63.00,-61.00,14.00
0.42,0.34,0.46,-66.04,-217.83,134.70,68.00,-38.00,14.00
0.24,0.56,0.75,3.23,-129.21,96.44,67.00,-22.00,8.00
0.13,0.55,0.94,55.36,-65.67,39.06,60.00,-8.00,-5.00
0.03,0.30,1.13,15.75,-27.16,-3.17,60.00,-10.00,-10.00
0.00,0.16,1.10,103.94,14.77,-16.60,55.00,-8.00,-15.00
0.01,-0.03,1.05,102.60,31.31,-43.82,52.00,-12.00,-10.00
0.06,-0.14,1.02,55.05,48.34,-45.65,62.00,-12.00,-10.00
0.17,-0.29,1.01,10.01,41.50,-19.84,50.00,-17.00,0.00
0.24,-0.21,0.86,-4.52,23.25,0.49,44.00,-12.00,0.00
0.26,-0.16,0.78,-14.47,-0.12,8.48,41.00,-9.00,-4.00
0.31,0.02,0.80,-45.29,-25.39,7.02,36.00,-4.00,-2.00
0.25,0.09,0.81,-40.89,-38.39,-5.31,44.00,-10.00,3.00
0.09,-0.07,0.88,13.31,-80.75,33.75,60.00,-10.00,-7.00
0.08,-0.14,1.29,37.35,-14.77,76.05,59.00,-5.00,-14.00
0.03,0.14,1.16,-80.38,7.87,19.59,51.00,-5.00,-17.00
-0.03,0.32,1.06,-73.24,-8.12,-21.06,54.00,-4.00,-16.00
0.05,0.21,0.97,21.42,-13.06,-6.65,52.00,-5.00,-16.00
0.10,-0.01,1.20,174.26,17.94,-25.02,53.00,-6.00,-11.00
0.07,-0.03,0.99,-23.62,11.96,-41.44,54.00,-6.00,-17.00
0.07,0.01,1.00,-1.53,4.52,-9.64,56.00,-7.00,-12.00
0.08,0.01,1.01,-0.61,0.98,-4.82,57.00,-7.00,-13.00
0.08,0.01,1.01,-0.73,0.61,-4.21,56.00,-9.00,-8.00
0.08,0.01,1.01,-0.98,0.61,-3.11,57.00,-7.00,-14.00
0.09,0.01,1.01,-0.67,0.49,-1.28,57.00,-8.00,-16.00
0.09,0.01,1.01,-0.85,0.37,-1.53,57.00,-7.00,-12.00
0.09,0.01,1.01,-0.55,0.37,-0.31,56.00,-9.00,-11.00
0.09,0.01,1.01,-0.49,0.31,-0.12,56.00,-6.00,-11.00
0.09,0.01,1.01,-0.49,0.31,-0.18,57.00,-8.00,-13.00
0.09,0.01,1.01,-0.43,0.31,-0.06,58.00,-8.00,-12.00
0.09,0.01,1.01,-0.61,0.24,-0.12,56.00,-8.00,-12.00
0.09,0.01,1.01,-0.49,0.24,-0.18,59.00,-5.00,-13.00
0.09,0.01,1.01,-0.43,0.18,0.00,58.00,-9.00,-14.00
0.09,0.01,1.01,-0.61,0.18,-0.06,58.00,-8.00,-10.00
0.09,0.01,1.01,-0.67,0.18,-0.06,58.00,-8.00,-15.00
0.09,0.01,1.01,-0.49,0.24,-0.12,56.00,-9.00,-9.00
0.09,0.01,1.01,-0.55,0.12,-0.06,58.00,-6.00,-13.00
